Folder: CHES210---Data-Science-In-Chemical-Engineering/Week 05

Note: Week 05/README.md
# DATA CLEANING

### Agenda
- Agenda
- Handling missing values
- Removing duplicates
- Standardizing data
- Validating cleaned data

### YouTube video:
https://youtu.be/mIUoy9tljaI

File: concrete_data.csv
Date,Cement (kg/m^3),Blast Furnace Slag (kg/m^3),Fly Ash (kg/m^3),Water (kg/m^3),Superplasticizer (kg/m^3),Coarse Aggregate (kg/m^3),Fine Aggregate (kg/m^3),Concrete compressive strength (MPa)
9/29/2024,540,0,0,162,2.5,1040,676,79.99
7/29/2024,266,114,0,228,0,932,670,47.03
7/29/2024,198.6,132.4,0,192,0,978.4,825.5,38.07
7/29/2024,380,0,0,228,0,932,670,52.91
4/30/2024,427.5,47.5,0,228,0,932,594,41.84
1/31/2024,380,0,0,228,0,932,670,53.3
10/28/2023,304,76,0,228,0,932,670,55.26
1/31/2024,237.5,237.5,0,228,0,932,594,38.41
7/29/2024,342,38,0,228,0,932,670,50.46
10/20/2024,427.5,47.5,0,228,0,932,594,35.08
4/30/2024,332.5,142.5,0,228,0,932,594,39.78
10/20/2024,198.6,132.4,0,192,0,978.4,825.5,14.64
1/31/2024,304,76,0,228,0,932,670,54.38
1/31/2024,342,38,0,228,0,932,670,55.06
10/24/2024,374,189.2,0,170.1,10.1,926.1,756.7,34.4
10/24/2024,475,118.8,0,181.1,8.9,852.1,781.5,37.8
10/24/2024,425,106.3,0,153.5,16.5,852.1,887.1,33.4
10/24/2024,379.5,151.2,0,153.9,15.9,1134.3,605,28.6
10/24/2024,389.9,189,0,145.9,22,944.7,755.8,40.6
10/20/2024,425,106.3,0,153.5,16.5,852.1,887.1,49.2
10/20/2024,425,106.3,0,153.5,16.5,852.1,887.1,49.2
10/20/2024,401.8,94.7,0,147.4,11.4,946.8,852.1,54.1
10/20/2024,286.3,200.9,0,144.7,11.2,1004.6,803.7,38
10/20/2024,337.9,189,0,174.9,9.5,944.7,755.8,35.1
9/29/2024,375,93.8,0,126.6,23.4,852.1,992.6,56.7
9/29/2024,531.3,0,0,141.8,28.2,852.1,893.7,56.4
9/29/2024,323.7,282.8,0,183.8,10.3,942.7,659.9,74.7
9/29/2024,439,177,0,186,11.1,884.9,707.9,66
9/1/2024,313.3,262.2,0,175.5,8.6,1046.9,611.8,64.9
9/1/2024,469,117.2,0,137.8,32.2,852.1,840.5,69.3
9/1/2024,318.8,212.5,0,155.7,14.3,852.1,880.4,66.1
9/1/2024,362.6,189,0,164.9,11.6,944.7,755.8,77.3
9/1/2024,362.6,189,0,164.9,11.6,944.7,755.8,77.3
7/28/2024,425,106.3,0,151.4,18.6,936,803.7,66.7
7/28/2024,388.6,97.1,0,157.9,12.1,852.1,925.7,57.6
7/28/2024,362.6,189,0,164.9,11.6,944.7,755.8,79.3
7/28/2024,439,177,0,186,11.1,884.9,707.9,73.3
10/13/2024,222.4,0,96.7,189.3,4.5,967.1,870.3,24.45
10/13/2024,233.8,0,94.6,197.9,4.6,947,852.2,22.14
10/13/2024,194.7,0,100.5,165.6,7.5,1006.4,905.9,24.99
10/13/2024,190.7,0,125.4,162.1,7.8,1090,804,21.06
10/13/2024,212.1,0,121.6,180.3,5.7,1057.6,779.3,20.92
10/13/2024,230,0,118.3,195.5,4.6,1029.4,758.6,20.08
10/13/2024,190.3,0,125.2,161.9,9.9,1088.1,802.6,22.72
10/13/2024,166.1,0,163.3,176.5,4.5,1058.6,780.1,25.48
10/13/2024,168,42.1,163.8,121.8,5.7,1058.7,780.1,17.82
10/13/2024,213.7,98.1,24.5,181.7,6.9,1065.8,785.4,30.39
10/13/2024,213.8,98.1,24.5,181.7,6.7,1066,785.5,17.84
10/13/2024,229.7,0,118.2,195.2,6.1,1028.1,757.6,22.32
10/13/2024,238.1,0,94.1,186.7,7,949.9,847,25.69
10/13/2024,250,0,95.7,187.4,5.5,956.9,861.2,24.92
10/13/2024,212.5,0,100.4,159.3,8.7,1007.8,903.6,26.31
10/13/2024,212.6,0,100.4,159.4,10.4,1003.8,903.8,25.37
10/13/2024,212,0,124.8,159,7.8,1085.4,799.5,31.35
10/13/2024,231.8,0,121.6,174,6.7,1056.4,778.5,26.77
10/13/2024,251.4,0,118.3,188.5,5.8,1028.4,757.7,29.93
10/13/2024,251.4,0,118.3,188.5,6.4,1028.4,757.7,24.43
10/13/2024,181.4,0,167,169.6,7.6,1055.6,777.8,21.6
10/13/2024,182,45.2,122,170.2,8.2,1059.4,780.7,21.5
10/13/2024,168.9,42.2,124.3,158.3,10.8,1080.8,796.2,23.51
10/13/2024,290.4,0,96.2,168.1,9.4,961.2,865,34.67
10/13/2024,277.1,0,97.4,160.6,11.8,973.9,875.6,41.89
10/13/2024,295.7,0,95.6,171.5,8.9,955.1,859.2,35.23
10/13/2024,251.8,0,99.9,146.1,12.4,1006,899.8,33.36
10/13/2024,249.1,0,98.8,158.1,12.8,987.8,889,28.68
10/13/2024,252.3,0,98.8,146.3,14.2,987.8,889,42.29
10/13/2024,246.8,0,125.1,143.3,12,1086.8,800.9,42.22
10/13/2024,275.1,0,121.4,159.5,9.9,1053.6,777.5,38.77
10/13/2024,297.2,0,117.5,174.8,9.5,1022.8,753.5,36.99
10/13/2024,213.7,0,174.7,154.8,10.2,1053.5,776.4,33.73
10/13/2024,213.5,0,174.2,154.6,11.7,1052.3,775.5,33.7
10/13/2024,277.2,97.8,24.5,160.7,11.2,1061.7,782.5,47.71
10/13/2024,218.2,54.6,123.8,140.8,11.9,1075.7,792.7,35.96
10/13/2024,214.9,53.8,121.9,155.6,9.6,1014.3,780.6,38.6
10/13/2024,218.9,0,124.1,158.5,11.3,1078.7,794.9,26.05
10/13/2024,376,0,0,214.6,0,1003.5,762.4,25.62
9/29/2024,475,0,59,142,1.9,1098,641,57.23
9/29/2024,520,0,0,170,5.2,855,855,60.28
9/29/2024,450.1,50,0,200,3,1124.4,613.2,39.38
9/29/2024,200,200,0,190,0,1145,660,49.25
9/29/2024,250,180,95,159,9.5,860,800,67.87
9/29/2024,500,0,0,151,9,1033,655,69.84
10/24/2024,172.4,13.6,172.4,156.8,4.1,1006.3,856.4,21.29
10/24/2024,250,0,95.7,191.8,5.3,948.9,857.2,8.49
10/13/2024,165,128.5,132.1,175.1,8.1,1005.8,746.6,33.09
10/13/2024,167,75.4,167,164,7.9,1007.3,770.1,32.9
10/13/2024,194.7,0,100.5,170.2,7.5,998,901.8,24.28
9/29/2024,167.4,129.9,128.6,175.5,7.8,1006.3,746.6,41.2
9/29/2024,190.3,0,125.2,166.6,9.9,1079,798.9,24.85
9/1/2024,165,0,143.6,163.8,0,1005.6,900.9,36.56
9/1/2024,173.5,50.1,173.5,164.8,6.5,1006.2,793.5,53.77
9/1/2024,213.5,0,174.2,159.2,11.7,1043.6,771.9,51.26
7/19/2024,178,129.8,118.6,179.9,3.6,1007.3,746.8,49.99
7/19/2024,173.8,93.4,159.9,172.3,9.7,1007.2,746.6,50.94
7/19/2024,251.4,0,118.3,192.9,5.8,1043.6,754.3,40.15
10/24/2024,446,24,79,162,11.6,967,712,35.36
10/20/2024,446,24,79,162,11.6,967,712,39.3
9/29/2024,387,20,94,157,14.3,938,845,50.24
10/24/2024,387,20,94,157,11.6,938,845,34.77
9/1/2024,387,20,94,157,13.9,938,845,47.97
9/29/2024,491,26,123,201,3.9,822,699,57.92
10/20/2024,491,26,123,201,3.9,822,699,37.92
10/20/2024,424,22,132,178,8.5,822,750,39
9/29/2024,202,11,141,206,1.7,942,801,21.97
10/24/2024,284,15,141,179,5.5,842,801,13.4
10/24/2024,359,19,141,154,10.9,942,801,25.12
9/1/2024,359,19,141,154,10.9,942,801,66.78
7/29/2024,393,0,0,192,0,940.6,785.6,48.85
10/24/2024,480,0,0,192,0,936.2,712.2,24.4
9/29/2024,255,0,0,192,0,889.8,945,18.75
10/20/2024,393,0,0,192,0,940.6,785.6,27.74
9/29/2024,181.9,272.8,0,185.7,0,1012.4,714.3,27.94
9/29/2024,220.8,147.2,0,185.7,0,1055,744.3,25.75
10/20/2024,295.8,0,0,185.7,0,1091.4,769.3,14.84
9/29/2024,295.8,0,0,185.7,0,1091.4,769.3,25.22
9/29/2024,238.1,0,0,185.7,0,1118.8,789.3,17.58
10/20/2024,290.2,193.5,0,185.7,0,998.2,704.3,21.86
9/29/2024,290.2,193.5,0,185.7,0,998.2,704.3,33.04
10/20/2024,238.1,0,0,185.7,0,1118.8,789.3,10.34
9/29/2024,186.2,124.1,0,185.7,0,1083.4,764.3,17.6
10/13/2024,339,0,0,197,0,968,781,27.04
10/24/2024,236,0,0,194,0,968,885,6.47
10/28/2023,236,0,0,193,0,968,885,25.08
4/30/2024,277,0,0,191,0,968,856,32.33
10/28/2023,254,0,0,198,0,968,863,29.79
7/29/2024,307,0,0,193,0,968,812,32.92
9/29/2024,225,0,0,181,0,1113,833,17.34
10/20/2024,300,0,0,184,0,1075,795,15.58
10/20/2024,400,0,0,187,0,1025,745,30.14
10/20/2024,203.5,305.3,0,203.5,0,963.4,630,19.54
7/29/2024,122.6,183.9,0,203.5,0,958.2,800.1,33.19
9/29/2024,166.8,250.2,0,203.5,0,975.6,692.6,33.95
7/29/2024,116,173,0,192,0,909.8,891.9,31.02
10/20/2024,173,116,0,192,0,946.8,856.8,11.39
9/29/2024,305.3,203.5,0,203.5,0,965.4,631,43.38
7/29/2024,183.9,122.6,0,203.5,0,959.2,800,32.53
9/29/2024,102,153,0,192,0,887,942,17.28
10/20/2024,133,200,0,192,0,927.4,839.2,13.66
10/20/2024,288,192,0,192,0,932,717.8,23.52
9/29/2024,116,173,0,192,0,909.8,891.9,22.35
10/24/2024,133,200,0,192,0,927.4,839.2,6.88
10/24/2024,122.6,183.9,0,203.5,0,958.2,800.1,3.32
9/29/2024,250.2,166.8,0,203.5,0,977.6,694.1,36.96
7/29/2024,141.3,212,0,203.5,0,971.8,748.5,39.66
7/29/2024,203.5,305.3,0,203.5,0,963.4,630,51.86
6/29/2024,310,0,0,192,0,1012,830,38.7
6/29/2024,331,0,0,192,0,1025,821,39.38
6/29/2024,349,0,0,192,0,1056,809,40.86
10/20/2024,297,0,0,186,0,1040,734,30.96
9/29/2024,281,0,0,185,0,1104,774,22.44
9/29/2024,500,0,0,200,0,1125,613,44.09
4/30/2024,540,0,0,173,0,1125,613,71.62
9/1/2024,350,0,0,203,0,974,775,29.98
10/20/2024,385,0,0,186,0,966,763,23.22
10/24/2024,349,0,0,192,0,1047,806,14.99
9/29/2024,281,0,0,186,0,1104,774,22.44
9/29/2024,238,0,0,185,0,1118,789,17.54
10/20/2024,331,0,0,192,0,978,825,16.26
7/29/2024,349,0,0,192,0,1047,806,39.49
4/30/2024,525,0,0,189,0,1125,613,61.92
10/20/2024,252,0,0,185,0,1111,784,13.71
7/29/2024,393,0,0,192,0,940,758,48.79
10/20/2024,310,0,0,192,0,970,850,14.99
10/24/2024,525,0,0,189,0,1125,613,33.8
1/31/2024,525,0,0,189,0,1125,613,67.11
9/29/2024,397,0,0,185,0,1040,734,39.09
9/29/2024,162,190,148,179,19,838,741,33.76
9/29/2024,144,0,175,158,18,943,844,15.42
9/29/2024,310,143,0,168,10,914,804,45.3
9/29/2024,321,164,0,190,5,870,774,57.21
9/29/2024,156,243,0,180,11,1022,698,37.36
9/29/2024,326,166,0,174,9,882,790,61.23
9/29/2024,314,0,113,170,10,925,783,38.46
9/29/2024,265,111,86,195,6,833,790,41.54
9/29/2024,149,139,109,193,6,892,780,23.69
9/29/2024,155,183,0,193,9,1047,697,18.28
9/29/2024,152,0,112,184,8,992,816,12.18
9/29/2024,153,145,113,178,8,867,824,26.23
9/29/2024,158,0,195,220,11,898,713,8.54
9/29/2024,260,101,78,171,10,936,763,49.77
9/29/2024,150,237,0,174,12,1069,675,37.43
9/29/2024,135,0,166,180,10,961,805,13.29
9/29/2024,144,136,106,178,7,941,774,26.14
9/29/2024,155,184,143,194,9,880,699,28.99
9/29/2024,136,162,126,172,10,923,764,29.07
9/29/2024,164,163,128,197,8,961,641,27.23
9/29/2024,159,209,161,201,7,848,669,30.88
9/29/2024,156,178,187,221,7,854,614,29.41
9/29/2024,296,0,106.7,221.4,10.5,819.2,778.4,31.42
9/29/2024,139.9,132.6,103.3,200.3,7.4,916,753.4,36.44
9/29/2024,326.5,0,137.9,199,10.8,801.1,792.5,38.63
9/29/2024,272.6,0,89.6,198.7,10.6,931.3,762.2,32.25
9/29/2024,284,119.7,0,168.3,7.2,970.4,794.2,40.93
9/29/2024,330.5,169.6,0,194.9,8.1,811,802.3,56.62
9/29/2024,314,145.3,113.2,178.9,8,869.1,690.2,46.23
9/29/2024,277,116.8,91,190.6,7,946.5,665.6,43.58
9/29/2024,147.8,175.1,0,171.2,2.2,1000,828.5,26.92
9/29/2024,255.3,98.8,77,188.6,6.5,919,749.3,33.8
9/29/2024,151.8,178.1,138.7,167.5,18.3,944,694.6,36.35
9/29/2024,158.6,148.9,116,175.1,15,953.3,719.7,27.68
9/29/2024,141.9,166.6,129.7,173.5,10.9,882.6,785.3,44.61
9/29/2024,252.1,97.1,75.6,193.8,8.3,835.5,821.4,33.4
9/29/2024,317.9,0,126.5,209.7,5.7,860.5,736.6,40.06
9/29/2024,322.5,148.6,0,185.8,8.5,951,709.5,52.43
9/29/2024,288.4,121,0,177.4,7,907.9,829.5,42.14
9/29/2024,276.4,116,90.3,179.6,8.9,870.1,768.3,44.28
9/29/2024,260.9,100.5,78.3,200.6,8.6,864.5,761.5,32.4